Folder: Characterization_reports/XRD_2

Note: XRD_2/real_angles.txt
h    k    l      d(Ã…)      F(real)      F(imag)          |F|         2Theta          I    M
   1    0    1   3.516904    39.636764    46.922680      61.4232   25.30376  100.00000    8
   1    0    3   2.430855    19.312319   -12.282586      22.8873   36.94904    6.15299    8
   0    0    4   2.378500    83.889701     7.335270      84.2098   37.79281   19.81304    2
   1    1    2   2.332561    25.965928     6.997657      26.8923   38.56624    7.72850    8
   2    0    0   1.892500    94.418114     7.473263      94.7134   48.03628   29.28227    4
   2    0    2   1.758452    -0.000000     0.000000  1.25607e-15   51.95953    0.00000    8
   1    0    5   1.700062    39.785344    47.253115      61.7716   53.88540   19.17823    8
   2    1    1   1.666532    34.810614   -27.524697      44.3778   55.06027   18.84890   16
   2    1    3   1.493303    10.622593    17.652326       20.602   62.10645    3.09876   16
   2    0    4   1.480917    63.192873     7.335270      63.6172   62.68438   14.47493    8
   1    1    6   1.364213    48.684218     7.233604      49.2187   68.75531    7.11018    8
   2    2    0   1.338200    72.630234     7.473263      73.0137   70.28633    7.48045    4
   1    0    7   1.279172    14.074965    -7.099994      15.7643   74.05288    0.63027    8
   2    1    5   1.264705    38.055465   -30.587694      48.8244   75.04489   11.79927   16
   3    0    1   1.250717    21.683834    28.969751      36.1861   76.03233    3.16568    8
   2    0    6   1.215427    -0.000000     0.000000  4.99872e-14   78.65702    0.00000    8
   0    0    8   1.189250    29.206460     7.069825        30.05   80.73926    0.49465    2
   3    0    3   1.172301    16.219093    -9.189360      18.6414   82.15520    0.74250    8
   2    2    4   1.166281    52.253871     7.335270      52.7662   82.67186    5.89769    8
   3    1    2   1.160743    22.467425     6.997657      23.5319   83.15362    2.32763   16
   3    1    4   1.069177    -0.000000     0.000000  5.97461e-15   92.18455    0.00000   16
   2    1    7   1.059790     6.375823    13.350794      14.7951   93.24410    0.82635   16
   3    0    5   1.051518    25.439561    32.907332       41.594   94.20228    3.25065    8
   3    2    1   1.043438    18.256325    25.542242      31.3959   95.16164    3.69065   16
   1    0    9   1.018148    21.334343    28.713895      35.7721   98.32489    2.38290    8
   2    0    8   1.006940    26.385583     7.069825      27.3163   99.81181    1.39084    8

Note: README.md
# Characterization_reports
# Material Characterization reports

File: pico_1TI.csv
2Theta,I
24.7922,0.85897
24.8124,1.06235
24.8326,1.10561
24.8528,1.12977
24.8729,1.07934
24.8931,1.25048
24.9133,1.3798
24.9335,1.57744
24.9537,1.60204
24.9739,1.73135
24.994,1.87359
25.0142,2.21534
25.0344,2.50589
25.0546,2.93215
25.0748,3.22835
25.095,3.78991
25.1151,4.68526
25.1353,6.18677
25.1555,8.36316
25.1757,12.23007
25.1959,18.44143
25.2161,29.21557
25.2362,45.55634
25.2564,66.58435
25.2766,87.19268
25.2968,100.0
25.317,97.85912
25.3372,81.405
25.3573,57.40597
25.3775,35.38338
25.3977,20.38657
25.4179,12.57046
25.4381,8.13656
25.4583,5.25345
25.4784,3.33994
25.4986,2.81957
25.5188,2.9986
25.539,3.15946
25.5592,2.72994
25.5794,2.10084
25.5995,1.58318
25.6197,1.35324
25.6399,1.42371
25.6601,1.479
25.6803,1.31459
25.7005,1.00611
25.7206,0.84176

File: pico_2TI.csv
2Theta,I
36.8215,0.85226
36.8417,1.31127
36.8619,1.97853
36.8821,2.86138
36.9023,3.91973
36.9225,4.79494
36.9426,5.17648
36.9628,4.91006
36.983,3.98259
37.0032,2.76476
37.0234,1.67879
37.0436,1.10213
37.0637,0.77192

File: pico_3TI.csv
2Theta,I
37.5683,0.84188
37.5885,1.05383
37.6087,1.40436
37.6289,1.87937
37.6491,2.54941
37.6692,3.63842
37.6894,5.34301
37.7096,7.79155
37.7298,11.24013
37.75,15.06845
37.7702,18.02282
37.7903,18.97502
37.8105,17.25435
37.8307,13.33001
37.8509,8.85334
37.8711,5.09077
37.8913,2.53962
37.9114,1.2459
37.9316,0.78596

File: pico_4TI.csv
2Theta,I
38.416,0.76316
38.4362,1.00256
38.4564,1.39873
38.4766,1.99327
38.4968,2.99756
38.5169,4.21055
38.5371,5.30269
38.5573,5.92048
38.5775,5.74608
38.5977,4.67312
38.6179,3.16867
38.638,1.79552
38.6582,0.86331

File: pico_5TI.csv
2Theta,I
47.761,0.8843
47.7811,1.06381
47.8013,1.22602
47.8215,1.34398
47.8417,1.52976
47.8619,1.95566
47.8821,2.67924
47.9022,3.99497
47.9224,5.83954
47.9426,8.62321
47.9628,12.485
47.983,17.19329
48.0032,21.7085
48.0233,24.23262
48.0435,23.40809
48.0637,19.54936
48.0839,14.03939
48.1041,8.93666
48.1243,5.40481
48.1444,3.29472
48.1646,2.03642
48.1848,1.12207
48.205,0.57832

File: pico_6TI.csv
2Theta,I
53.6747,0.93822
53.6949,1.16547
53.7151,1.5191
53.7353,2.16596
53.7554,3.01895
53.7756,4.30057
53.7958,6.23015
53.816,8.5752
53.8362,11.13229
53.8564,13.20872
53.8765,13.73961
53.8967,12.49774
53.9169,9.91907
53.9371,6.65034
53.9573,4.06408
53.9775,2.34986
53.9976,1.4988
54.0178,1.15947
54.038,1.0425
54.0582,1.01639
54.0784,1.17208
54.0986,1.03952
54.1187,0.88798

File: pico_7TI.csv
2Theta,I
54.8655,0.97133
54.8857,1.25861
54.9059,1.71047
54.9261,2.42433
54.9463,3.52101
54.9664,5.22796
54.9866,7.53373
55.0068,10.07915
55.027,12.37835
55.0472,13.53833
55.0674,12.86514
55.0875,10.73099
55.1077,7.78438
55.1279,4.9591
55.1481,2.9584
55.1683,1.83573
55.1885,1.17377
55.2086,0.911

File: pico_8TI.csv
2Theta,I
62.0105,0.89293
62.0306,1.2292
62.0508,1.61047
62.071,1.94212
62.0912,2.11057
62.1114,2.02319
62.1316,1.72982
62.1517,1.29562
62.1719,0.89828

File: pico_9TI.csv
2Theta,I
62.4949,0.94182
62.515,1.20559
62.5352,1.61065
62.5554,2.26779
62.5756,3.29001
62.5958,4.7376
62.616,6.26953
62.6361,7.75319
62.6563,8.81826
62.6765,9.02568
62.6967,8.09626
62.7169,6.48076
62.7371,4.56087
62.7572,2.68267
62.7774,1.56115
62.7976,0.94884

File: pico_10TI.csv
2Theta,I
68.6104,0.76251
68.6306,1.10016
68.6508,1.55719
68.671,2.0772
68.6912,2.70993
68.7114,3.2827
68.7315,3.57723
68.7517,3.54603
68.7719,3.13241
68.7921,2.51011
68.8123,1.83834
68.8325,1.1966
68.8526,0.72117

File: pico_11TI.csv
2Theta,I
70.1444,0.83925
70.1646,1.20295
70.1848,1.78196
70.2049,2.40456
70.2251,3.04622
70.2453,3.57029
70.2655,3.84058
70.2857,3.74696
70.3059,3.31253
70.326,2.57021
70.3462,1.81037
70.3664,1.1754
70.3866,0.692

File: pico_12TI.csv
2Theta,I
74.8673,0.81325
74.8875,1.08334
74.9077,1.43895
74.9279,1.92542
74.948,2.51837
74.9682,3.42824
74.9884,4.32886
75.0086,5.09522
75.0288,5.48319
75.049,5.28262
75.0691,4.48214
75.0893,3.45984
75.1095,2.39321
75.1297,1.60101
75.1499,1.10222
75.1701,0.79675

File: pico_13TI.csv
2Theta,I
82.5572,0.92192
82.5774,1.22068
82.5976,1.57537
82.6177,1.95762
82.6379,2.18483
82.6581,2.26928
82.6783,2.06863
82.6985,1.77968
82.7187,1.37186
82.7388,1.03678
82.759,0.74366

File: Unknown-sample-03.xy
9.99775	180
10.2803	190
10.5629	139
10.8455	162
11.128	178
11.4106	189
11.6932	165
11.97573	129
12.2583	160
12.5409	135
12.8234	155
13.106	123
13.3886	138
13.6711	128
13.9537	154
14.2363	135
14.5188	143
14.8014	121
15.084	133
15.3665	123
15.6491	120
15.9317	144
16.2143	126
16.4968	116
16.7794	124
17.062	131
17.3445	109
17.6271	130
17.9097	110
18.1922	105
18.4748	115
18.7574	112
19.0399	130
19.3225	123
19.6051	115
19.8876	129
20.1702	124
20.4528	103
20.7353	98
21.0179	115
21.3005	123
21.583	98
21.8656	124
22.1482	109
22.4307	110
22.7133	109
22.9959	110
23.2785	97
23.561	111
23.8436	107
24.1262	124
24.4087	195
24.6913	314
24.9739	637
25.2564	15793
25.539	1121
25.8216	313
26.1041	227
26.3867	200
26.6693	186
26.9518	147
27.2344	144
27.517	186
27.7995	173
28.0821	149
28.3647	120
28.6472	143
28.9298	117
29.2124	100
29.495	134
29.7775	105
30.0601	106
30.3427	91
30.6252	83
30.9078	103
31.1904	94
31.4729	91
31.7555	101
32.0381	94
32.3206	90
32.6032	92
32.8858	79
33.1683	76
33.4509	88
33.7335	84
34.016	75
34.2986	84
34.5812	81
34.8637	90
35.1463	64
35.4289	88
35.7114	83
35.994	103
36.2766	100
36.5592	125
36.8417	337
37.1243	299
37.4069	188
37.6894	1269
37.972	781
38.2546	163
38.5371	1306
38.8197	150
39.1023	102
39.3848	83
39.6674	84
39.95	99
40.2325	91
40.5151	78
40.7977	94
41.0802	61
41.3628	88
41.6454	79
41.9279	64
42.2105	63
42.4931	78
42.7756	75
43.0582	79
43.3408	76
43.6234	55
43.9059	72
44.1885	79
44.4711	77
44.7536	77
45.0362	69
45.3188	61
45.6013	80
45.8839	86
46.1665	61
46.449	95
46.7316	100
47.0142	101
47.2967	108
47.5793	145
47.8619	536
48.1444	3246
48.427	169
48.7096	105
48.9921	81
49.2747	75
49.5573	74
49.8399	64
50.1224	87
50.405	59
50.6876	66
50.9701	71
51.2527	68
51.5353	65
51.8178	72
52.1004	74
52.383	82
52.6655	74
52.9481	87
53.2307	88
53.5132	166
53.7958	1385
54.0784	986
54.3609	143
54.6435	135
54.9261	661
55.2086	1707
55.4912	132
55.7738	82
56.0563	72
56.3389	78
56.6215	68
56.9041	65
57.1866	65
57.4692	68
57.7518	67
58.0343	63
58.3169	62
58.5995	59
58.882	73
59.1646	64
59.4472	57
59.7297	59
60.0123	46
60.2949	70
60.5774	53
60.86	63
61.1426	64
61.4251	85
61.7077	71
61.9903	201
62.2728	325
62.5554	594
62.838	1112
63.1206	114
63.4031	65
63.6857	67
63.9683	57
64.2508	57
64.5334	49
64.816	62
65.0985	57
65.3811	47
65.6637	40
65.9462	53
66.2288	62
66.5114	47
66.7939	46
67.0765	55
67.3591	50
67.6416	58
67.9242	64
68.2068	54
68.4893	120
68.7719	757
69.0545	139
69.337	62
69.6196	50
69.9022	88
70.1848	444
70.4673	509
70.7499	61
71.0325	47
71.315	40
71.5976	43
71.8802	44
72.1627	42
72.4453	44
72.7279	46
73.0104	48
73.293	53
73.5756	44
73.8581	49
74.1407	66
74.4233	50
74.7058	87
74.9884	966
75.271	620
75.5535	62
75.8361	74
76.1187	147
76.4012	68
76.6838	37
76.9664	45
77.249	42
77.5315	40
77.8141	34
78.0967	44
78.3792	42
78.6618	31
78.9444	31
79.2269	26
79.5095	38
79.7921	48
80.0746	37
80.3572	33
80.6398	62
80.9223	57
81.2049	35
81.4875	40
81.77	45
82.0526	78
82.3352	84
82.6177	472
82.9003	302
83.1829	200
83.4655	104
83.748	33
84.0306	44
84.3132	27
84.5957	36
84.8783	37
85.1609	33
85.4434	26
85.726	36
86.0086	35
86.2911	34
86.5737	22
86.8563	21
87.1388	39
87.4214	34
87.704	21
87.9865	29
88.2691	27
88.5517	23
88.8342	27
89.1168	33
89.3994	34
89.6819	25
89.9241	29

File: Unknown-sample-04.xy
30.01	59
30.25	61
30.49	64
30.73	57
30.97	56
31.21	56
31.45	54
31.69	51
31.93	53
32.17	50
32.41	46
32.65	37
32.89	48
33.13	54
33.37	58
33.61	41
33.85	52
34.09	62
34.33	60
34.57	56
34.81	54
35.05	54
35.29	48
35.53	50
35.77	65
36.01	60
36.25	63
36.49	70
36.73	86
36.97	101
37.21	99
37.45	193
37.69	278
37.93	708
38.17	2620
38.41	4418
38.65	1601
38.89	464
39.13	213
39.37	133
39.61	100
39.85	78
40.09	72
40.33	78
40.57	54
40.81	59
41.05	57
41.29	65
41.53	61
41.77	62
42.01	56
42.25	60
42.49	70
42.73	63
42.97	56
43.21	85
43.45	102
43.69	125
43.93	181
44.17	348
44.41	943
44.65	1228
44.89	618
45.13	242
45.37	122
45.61	93
45.85	71
46.09	46
46.33	42
46.57	37
46.81	45
47.05	31
47.29	34
47.53	32
47.77	41
48.01	35
48.25	36
48.49	31
48.73	23
48.97	28
49.21	44
49.45	35
49.69	32
49.93	25
50.17	22
50.41	33
50.65	24
50.89	26
51.13	30
51.37	28
51.61	29
51.85	26
52.09	35
52.33	25
52.57	36
52.81	30
53.05	25
53.29	16
53.53	30
53.77	27
54.01	31
54.25	31
54.49	27
54.73	14
54.97	19
55.21	33
55.45	31
55.69	37
55.93	32
56.17	30
56.41	35
56.65	34
56.89	23
57.13	37
57.37	35
57.61	26
57.85	27
58.09	21
58.33	31
58.57	29
58.81	31
59.05	33
59.29	26
59.53	27
59.77	33
60.01	32
60.25	28
60.49	25
60.73	28
60.97	23
61.21	27
61.45	36
61.69	42
61.93	52
62.17	38
62.41	51
62.65	41
62.89	47
63.13	40
63.37	50
63.61	59
63.85	82
64.09	129
64.33	204
64.57	632
64.81	1037
65.05	675
65.29	259
65.53	122
65.77	82
66.01	66
66.25	45
66.49	48
66.73	52
66.97	37
67.21	40
67.45	37
67.69	42
67.93	27
68.17	24
68.41	31
68.65	31
68.89	28
69.13	28
69.37	23
69.61	35
69.85	32
70.09	29
70.33	38
70.57	22
70.81	35
71.05	43
71.29	35
71.53	33
71.77	22
72.01	34
72.25	29
72.49	34
72.73	36
72.97	27
73.21	32
73.45	32
73.69	35
73.93	30
74.17	35
74.41	32
74.65	31
74.89	33
75.13	37
75.37	34
75.61	30
75.85	47
76.09	41
76.33	47
76.57	57
76.81	77
77.05	115
77.29	173
77.53	540
77.77	943
78.01	685
78.25	320
78.49	125
78.73	77
78.97	54
79.21	46
79.45	55
79.69	44
79.93	43
80.17	31
80.41	44
80.65	46
80.89	47
81.13	50
81.37	65
81.61	109
81.85	269
82.09	241
82.33	124
82.57	53
82.81	48
83.05	32
83.29	36
83.53	29
83.77	17
84.01	32
84.25	32
84.49	29
84.73	23
84.97	26
85.21	14
85.45	25
85.69	32
85.93	18
86.17	23
86.41	25
86.65	19
86.89	14
87.13	24
87.37	21
87.61	33
87.85	21
88.09	19
88.33	17
88.57	20
88.81	20
89.05	23
89.29	17
89.53	21
89.77	20
90.01	27
90.25	23
90.49	25
90.73	26
90.97	16
91.21	19
91.45	10
91.69	21
91.93	23
92.17	13
92.41	22
92.65	22
92.89	16
93.13	20
93.37	23
93.61	19
93.85	17
94.09	13
94.33	27
94.57	20
94.81	24
95.05	22
95.29	15
95.53	20
95.77	23
96.01	21
96.25	19
96.49	18
96.73	32
96.97	15
97.21	29
97.45	32
97.69	26
97.93	63
98.17	95
98.41	130
98.65	104
98.89	75
99.13	41
99.37	24
99.61	29
99.85	28
99.99	24