Folder: Characterization_reports/XRD_1

Note: XRD_1/1000041.txt
h    k    l      d(Ã…)      F(real)      F(imag)          |F|         2theta          I    M
   1    1    1   3.244708   -18.859064    -2.306167      18.9995   27.46637    8.65742    8
   2    0    0   2.810000    87.211237     3.294685      87.2734   31.81997  100.00000    6
   2    2    0   1.986970    74.709835     3.294685      74.7824   45.61968   66.24467   12
   3    1    1   1.694494   -11.737657    -2.306167      11.9621   54.07685    2.30311   24
   2    2    2   1.622354    66.690840     3.294685      66.7722   56.69287   21.48699    8
   4    0    0   1.405000    61.013778     3.294685      61.1027   66.49459    9.48505    6
   3    3    1   1.289316   -11.616071    -2.306167      11.8428   73.37435    1.16831   24
   4    2    0   1.256670    56.724193     3.294685      56.8198   75.60859   25.44910   24
   4    2    2   1.147178    53.317880     3.294685      53.4196   84.36139   19.00569   24

Note: README.md
# Characterization_reports
# Material Characterization reports

File: datasal.xy
     9.998        113
     10.27        125
    10.543        133
    10.815        110
    11.088        121
     11.36        150
    11.633        129
    11.905        173
    12.178        149
     12.45        158
    12.723        139
    12.995        169
    13.267        157
     13.54        128
    13.812        168
    14.085        152
    14.357        142
     14.63        143
    14.902        125
    15.175        141
    15.447        135
     15.72        117
    15.992        141
    16.265        129
    16.537        116
     16.81        116
    17.082        119
    17.355         95
    17.627         98
      17.9        106
    18.172        101
    18.445         91
    18.717        102
    18.989         95
    19.262        104
    19.534         81
    19.807         74
    20.079         87
    20.352         86
    20.624         88
    20.897         79
    21.169         72
    21.442         65
    21.714         80
    21.987         75
    22.259         80
    22.532         86
    22.804         76
    23.077         76
    23.349         62
    23.622         83
    23.894         83
    24.167         80
    24.439         59
    24.711         67
    24.984         65
    25.256         66
    25.529         64
    25.801         52
    26.074         75
    26.346         63
    26.619         71
    26.891         76
    27.164         87
    27.436        200
    27.709        146
    27.981         95
    28.254         71
    28.526         85
    28.799         79
    29.071         89
    29.344         83
    29.616         76
    29.889         84
    30.161         79
    30.433        103
    30.706         98
    30.978        229
    31.251        229
    31.523        357
    31.796       5028
    32.068       1301
    32.341        265
    32.613        198
    32.886        172
    33.158        145
    33.431        147
    33.703        115
    33.976        116
    34.248        129
    34.521        102
    34.793        113
    35.066         93
    35.338         87
    35.611         86
    35.883         86
    36.155         85
    36.428         78
      36.7         75
    36.973         69
    37.245         60
    37.518         77
     37.79         73
    38.063         68
    38.335         64
    38.608         54
     38.88         61
    39.153         78
    39.425         65
    39.698         58
     39.97         69
    40.243         60
    40.515         49
    40.788         60
     41.06         65
    41.333         56
    41.605         63
    41.877         66
     42.15         55
    42.422         63
    42.695         55
    42.967         69
     43.24         59
    43.512         64
    43.785         55
    44.057         78
     44.33         78
    44.602         85
    44.875        112
    45.147        115
     45.42        389
    45.692       3458
    45.965        173
    46.237         83
     46.51         76
    46.782         75
    47.055         96
    47.327         76
    47.599         72
    47.872         69
    48.144         63
    48.417         75
    48.689         69
    48.962         66
    49.234         69
    49.507         53
    49.779         57
    50.052         51
    50.324         51
    50.597         54
    50.869         46
    51.142         49
    51.414         50
    51.687         61
    51.959         56
    52.232         50
    52.504         44
    52.777         48
    53.049         43
    53.321         53
    53.594         45
    53.866         75
    54.139        144
    54.411         39
    54.684         47
    54.956         50
    55.229         52
    55.501         58
    55.774         43
    56.046         48
    56.319         76
    56.591        749
    56.864        146
    57.136         54
    57.409         46
    57.681         44
    57.954         33
    58.226         51
    58.499         40
    58.771         40
    59.043         33
    59.316         42
    59.588         39
    59.861         28
    60.133         39
    60.406         40
    60.678         40
    60.951         40
    61.223         27
    61.496         33
    61.768         35
    62.041         34
    62.313         38
    62.586         34
    62.858         27
    63.131         37
    63.403         44
    63.676         27
    63.948         39
    64.221         36
    64.493         36
    64.765         39
    65.038         52
     65.31         53
    65.583         38
    65.855         49
    66.128        105
      66.4       1226
    66.673        148
    66.945         52
    67.218         44
     67.49         35
    67.763         34
    68.035         29
    68.308         36
     68.58         38
    68.853         36
    69.125         40
    69.398         28
     69.67         31
    69.943         27
    70.215         27
    70.488         32
     70.76         26
    71.032         29
    71.305         25
    71.577         23
     71.85         29
    72.122         32
    72.395         24
    72.667         42
     72.94         39
    73.212         56
    73.485         34
    73.757         29
     74.03         34
    74.302         37
    74.575         40
    74.847         42
     75.12         64
    75.392       1063
    75.665        249
    75.937         35
     76.21         34
    76.482         32
    76.754         24
    77.027         19
    77.299         16
    77.572         20
    77.844         21
    78.117         23
    78.389         25
    78.662         22
    78.934         18
    79.207         20
    79.479         21
    79.752         19
    80.024         22
    80.297         18
    80.569         25
    80.842         26
    81.114         15
    81.387         18
    81.659         24
    81.932         25
    82.204         23
    82.476         13
    82.749         19
    83.021         18
    83.294         18
    83.566         18
    83.839         40
    84.111        157
    84.384         60
    84.656         15
    84.929         12
    85.201         19
    85.474         11
    85.746         20
    86.019         15
    86.291         12
    86.564         11
    86.836         15
    87.109         15
    87.381         15
    87.654         15
    87.926         15
    88.198         12
    88.471          5
    88.743         12
    89.016          9
    89.288         13
    89.561         13
    89.833          9
    89.995          9

File: picos2.csv
2Theta	Intensity
27.55899	1071.9
31.8829	38312.9
45.57585	5292.3
53.998	139
56.611	711.8
66.36009	2248.5
75.37904	1049
84.041	216.5